File: impedance_transformer/measurements/6p_42s_on_material43_5943001301/secondary_close_0.3mm.csv
Freq (MHz),re(S11),im(S11),re(Z),im(Z)
0.050,-0.99533,0.01565,0.114,0.393
0.100,-0.99303,0.03244,0.162,0.816
0.150,-0.99352,0.04821,0.133,1.212
0.200,-0.99255,0.06475,0.134,1.629
0.250,-0.99176,0.08002,0.126,2.014
0.300,-0.99591,0.09201,-0.004,2.305
0.350,-0.98872,0.11261,0.123,2.838
0.400,-0.98781,0.12827,0.098,3.233
0.450,-0.98558,0.14483,0.096,3.654
0.500,-0.98776,0.16019,-0.017,4.028
0.550,-0.98283,0.17730,0.033,4.474
0.600,-0.97688,0.20161,0.064,5.106
0.650,-0.97565,0.20750,0.064,5.258
0.700,-0.97114,0.22211,0.096,5.645
0.750,-0.93787,0.23750,0.839,6.231
0.800,-0.95375,0.25047,0.356,6.456
0.850,-0.95533,0.26734,0.204,6.864
0.900,-0.96918,0.28947,-0.292,7.307
0.950,-0.94753,0.29668,0.183,7.645
1.000,-0.94292,0.31214,0.174,8.061
1.050,-0.93912,0.32081,0.196,8.304
1.100,-0.93071,0.33871,0.248,8.815
1.150,-0.92555,0.35369,0.238,9.228
1.200,-0.89582,0.36062,0.906,9.683
1.250,-0.91382,0.38115,0.258,10.009
1.300,-0.90777,0.39532,0.259,10.414
1.350,-0.88967,0.40746,0.568,10.904
1.400,-0.89377,0.42168,0.310,11.202
1.450,-0.88552,0.43477,0.358,11.612
1.500,-0.88412,0.45021,0.208,11.997
1.550,-0.87272,0.46221,0.332,12.423
1.600,-0.86544,0.47647,0.323,12.854
1.650,-0.85180,0.48770,0.499,13.300
1.700,-0.84994,0.49939,0.384,13.601
1.750,-0.84292,0.51266,0.364,14.010
1.800,-0.83571,0.52552,0.349,14.414
1.850,-0.82742,0.53776,0.361,14.820
1.900,-0.81866,0.55042,0.372,15.245
1.950,-0.81277,0.56097,0.343,15.579
2.000,-0.80160,0.57309,0.406,16.034
2.050,-0.79458,0.58465,0.376,16.412
2.100,-0.78325,0.59383,0.480,16.810
2.150,-0.77603,0.60659,0.423,17.222
2.200,-0.76729,0.61702,0.436,17.609
2.250,-0.75731,0.62626,0.492,17.994
2.300,-0.74978,0.63718,0.459,18.375
2.350,-0.74006,0.64790,0.472,18.793
2.400,-0.73427,0.65930,0.380,19.152
2.450,-0.72091,0.66772,0.505,19.596
2.500,-0.71221,0.67721,0.504,19.975
2.550,-0.70013,0.68575,0.589,20.405
2.600,-0.69395,0.69598,0.508,20.752
2.650,-0.68395,0.70635,0.499,21.182
2.700,-0.67221,0.71336,0.594,21.583
2.750,-0.66301,0.72291,0.575,21.985
2.800,-0.65441,0.73120,0.567,22.349
2.850,-0.64554,0.74047,0.537,22.741
2.900,-0.63390,0.74851,0.587,23.174
2.950,-0.62360,0.75587,0.620,23.566
3.000,-0.61432,0.76423,0.605,23.956
3.050,-0.60546,0.77196,0.591,24.326
3.100,-0.59356,0.78001,0.624,24.779
3.150,-0.58464,0.78790,0.597,25.158
3.200,-0.57384,0.79379,0.653,25.548
3.250,-0.56490,0.80021,0.656,25.903
3.300,-0.55280,0.80616,0.727,26.336
3.350,-0.54294,0.81495,0.675,26.765
3.400,-0.53323,0.81978,0.722,27.119
3.450,-0.52341,0.82636,0.718,27.512
3.500,-0.51239,0.83437,0.692,27.966
3.550,-0.50191,0.83883,0.751,28.345
3.600,-0.49314,0.84553,0.711,28.717
3.650,-0.48154,0.85118,0.747,29.155
3.700,-0.47177,0.85475,0.808,29.508
3.750,-0.46172,0.86220,0.754,29.937
3.800,-0.45078,0.86645,0.807,30.343
3.850,-0.44097,0.87119,0.821,30.726
3.900,-0.42987,0.87834,0.776,31.191
3.950,-0.41952,0.88217,0.819,31.582
4.000,-0.41028,0.88604,0.840,31.941
4.050,-0.39914,0.88996,0.885,32.367
4.100,-0.38955,0.89515,0.859,32.764
4.150,-0.38026,0.89814,0.899,33.120
4.200,-0.37026,0.90194,0.918,33.516
4.250,-0.35822,0.90717,0.913,34.005
4.300,-0.34878,0.91083,0.920,34.386
4.350,-0.34027,0.91275,0.972,34.713
4.400,-0.32973,0.91750,0.948,35.153
4.450,-0.32010,0.92178,0.923,35.558
4.500,-0.31050,0.92489,0.936,35.948
4.550,-0.30045,0.92680,0.995,36.343
4.600,-0.28987,0.92985,1.016,36.776
4.650,-0.27993,0.93345,1.002,37.196
4.700,-0.27257,0.93478,1.041,37.493
4.750,-0.26086,0.93800,1.055,37.982
4.800,-0.25109,0.94097,1.051,38.397
4.850,-0.24177,0.94289,1.080,38.786
4.900,-0.23297,0.94536,1.077,39.163
4.950,-0.22388,0.94784,1.074,39.555
5.000,-0.21268,0.94979,1.110,40.030
5.050,-0.20496,0.95125,1.127,40.362
5.100,-0.19431,0.95388,1.121,40.829
5.150,-0.18565,0.95412,1.191,41.195
5.200,-0.17603,0.95596,1.201,41.619
5.250,-0.16773,0.95774,1.197,41.990
5.300,-0.15806,0.96008,1.177,42.428
5.350,-0.14878,0.96045,1.235,42.836
5.400,-0.14078,0.96208,1.226,43.201
5.450,-0.13131,0.96327,1.243,43.631
5.500,-0.12213,0.96370,1.288,44.047
5.550,-0.11398,0.96566,1.254,44.430
5.600,-0.10494,0.96608,1.292,44.846
5.650,-0.09527,0.96638,1.337,45.295
5.700,-0.08793,0.96694,1.352,45.641
5.750,-0.07949,0.96818,1.339,46.045
5.800,-0.07106,0.96813,1.383,46.445
5.850,-0.06321,0.96934,1.362,46.827
5.900,-0.05294,0.96875,1.434,47.322
5.950,-0.04541,0.96976,1.414,47.694
6.000,-0.03715,0.96947,1.457,48.100
6.050,-0.02911,0.97074,1.419,48.503
6.100,-0.02018,0.96994,1.484,48.948
6.150,-0.01283,0.96987,1.505,49.320
6.200,-0.00471,0.97023,1.503,49.735
6.250,0.00377,0.97052,1.501,50.172
6.300,0.01135,0.97009,1.532,50.565
6.350,0.01885,0.96967,1.561,50.957
6.400,0.02656,0.96904,1.597,51.364
6.450,0.03449,0.96878,1.611,51.786
6.500,0.04225,0.96961,1.563,52.201
6.550,0.04945,0.96743,1.675,52.593
6.600,0.05765,0.96781,1.645,53.040
6.650,0.06421,0.96772,1.639,53.401
6.700,0.07199,0.96625,1.704,53.835
6.750,0.07866,0.96499,1.759,54.211
6.800,0.08651,0.96505,1.733,54.653
6.850,0.09336,0.96389,1.776,55.046
6.900,0.10106,0.96390,1.746,55.486
6.950,0.10874,0.96283,1.776,55.934
7.000,0.11509,0.96192,1.799,56.307
7.050,0.12195,0.96077,1.831,56.714
7.100,0.12937,0.95996,1.838,57.157
7.150,0.13742,0.95905,1.843,57.642
7.200,0.14284,0.95745,1.904,57.977
7.250,0.15059,0.95660,1.902,58.451
7.300,0.15636,0.95528,1.939,58.812
7.350,0.16212,0.95485,1.920,59.168
7.400,0.16956,0.95266,1.993,59.646
7.450,0.17544,0.95089,2.052,60.027
7.500,0.18133,0.95099,1.992,60.396
7.550,0.18843,0.94897,2.051,60.863
7.600,0.19480,0.94777,2.062,61.280
7.650,0.20098,0.94612,2.102,61.693
7.700,0.20809,0.94555,2.059,62.159
7.750,0.21352,0.94300,2.161,62.542
7.800,0.21994,0.94150,2.181,62.980
7.850,0.22552,0.93987,2.218,63.369
7.900,0.23282,0.93841,2.218,63.873
7.950,0.23780,0.93684,2.255,64.228
8.000,0.24332,0.93526,2.283,64.622
8.050,0.24923,0.93378,2.297,65.045
8.100,0.25577,0.93296,2.252,65.503
8.150,0.26166,0.93095,2.297,65.940
8.200,0.26816,0.92890,2.333,66.424
8.250,0.27160,0.92763,2.363,66.685
8.300,0.27756,0.92560,2.402,67.138
8.350,0.28286,0.92355,2.452,67.548
8.400,0.28979,0.92200,2.434,68.070
8.450,0.29410,0.91993,2.500,68.419
8.500,0.30075,0.91892,2.442,68.917
8.550,0.30502,0.91773,2.442,69.251
8.600,0.31182,0.91490,2.507,69.806
8.650,0.31673,0.91281,2.556,70.212
8.700,0.32042,0.91073,2.629,70.530
8.750,0.32624,0.90964,2.580,70.988
8.800,0.33287,0.90758,2.581,71.532
8.850,0.33633,0.90567,2.643,71.839
8.900,0.34302,0.90333,2.658,72.404
8.950,0.34729,0.90110,2.723,72.786
9.000,0.35118,0.89992,2.714,73.115
9.050,0.35747,0.89784,2.711,73.656
9.100,0.36182,0.89491,2.823,74.074
9.150,0.36641,0.89383,2.783,74.463
9.200,0.37231,0.89202,2.760,74.979
9.250,0.37521,0.88988,2.847,75.270
9.300,0.38012,0.88785,2.867,75.721
9.350,0.38604,0.88660,2.791,76.233
9.400,0.38823,0.88302,3.014,76.519
9.450,0.39371,0.88099,3.010,77.028
9.500,0.39877,0.87914,3.002,77.500
9.550,0.40265,0.87678,3.071,77.896
9.600,0.40668,0.87541,3.052,78.276
9.650,0.41224,0.87328,3.043,78.811
9.700,0.41608,0.87061,3.136,79.224
9.750,0.41931,0.86892,3.166,79.555
9.800,0.42384,0.86652,3.209,80.025
9.850,0.42813,0.86478,3.203,80.454
9.900,0.43395,0.86294,3.147,81.021
9.950,0.43820,0.86123,3.133,81.453
10.000,0.44023,0.85838,3.303,81.738
10.050,0.44525,0.85682,3.244,82.237
10.100,0.44961,0.85413,3.308,82.727
10.150,0.45449,0.85207,3.293,83.242
10.200,0.45591,0.84981,3.436,83.461
10.250,0.46156,0.84736,3.420,84.069
10.300,0.46534,0.84618,3.365,84.459
10.350,0.46825,0.84306,3.523,84.857
10.400,0.47347,0.84077,3.503,85.433
10.450,0.47632,0.83853,3.581,85.794
10.500,0.48023,0.83668,3.574,86.238
10.550,0.48364,0.83463,3.607,86.649
10.600,0.48667,0.83253,3.661,87.028
10.650,0.49106,0.83060,3.634,87.531
10.700,0.49574,0.82836,3.618,88.080
10.750,0.49866,0.82578,3.719,88.483
10.800,0.50152,0.82453,3.696,88.818
10.850,0.50474,0.82163,3.812,89.273
10.900,0.50730,0.81939,3.897,89.634
10.950,0.51297,0.81688,3.845,90.314
11.000,0.51523,0.81508,3.902,90.629
11.050,0.51936,0.81246,3.938,91.174
11.100,0.52276,0.81096,3.900,91.591
11.150,0.52620,0.80848,3.956,92.069
11.200,0.52918,0.80573,4.063,92.521
11.250,0.53241,0.80405,4.048,92.939
11.300,0.53617,0.80281,3.956,93.389
11.350,0.53894,0.79940,4.140,93.869
11.400,0.54174,0.79822,4.094,94.224
11.450,0.54412,0.79574,4.206,94.615
11.500,0.54768,0.79315,4.256,95.139
11.550,0.55201,0.79078,4.234,95.733
11.600,0.55352,0.78921,4.304,95.989
11.650,0.55823,0.78667,4.270,96.642
11.700,0.56096,0.78450,4.324,97.068
11.750,0.56345,0.78232,4.392,97.473
11.800,0.56608,0.78049,4.414,97.873
11.850,0.56997,0.77849,4.368,98.422
11.900,0.57251,0.77653,4.406,98.827
11.950,0.57470,0.77417,4.510,99.224
12.000,0.57800,0.77215,4.502,99.723
12.050,0.58111,0.76919,4.605,100.270
12.100,0.58431,0.76735,4.579,100.752
12.150,0.58610,0.76539,4.667,101.090
12.200,0.58892,0.76262,4.768,101.604
12.250,0.59196,0.76081,4.746,102.077
12.300,0.59387,0.75896,4.810,102.429
12.350,0.59740,0.75701,4.764,102.973
12.400,0.60018,0.75438,4.850,103.489
12.450,0.60308,0.75190,4.907,104.012
12.500,0.60483,0.75110,4.861,104.275
12.550,0.60861,0.74861,4.847,104.906
12.600,0.61025,0.74595,5.022,105.309
12.650,0.61292,0.74403,5.029,105.775
12.700,0.61528,0.74133,5.150,106.271
12.750,0.61760,0.73985,5.132,106.667
12.800,0.62021,0.73787,5.146,107.141
12.850,0.62161,0.73509,5.358,107.543
12.900,0.62537,0.73354,5.221,108.123
12.950,0.62816,0.73108,5.272,108.672
13.000,0.63027,0.72938,5.292,109.075
13.050,0.63250,0.72683,5.401,109.572
13.100,0.63556,0.72500,5.349,110.109
13.150,0.63753,0.72292,5.423,110.539
13.200,0.63931,0.72105,5.491,110.929
13.250,0.64076,0.71917,5.589,111.282
13.300,0.64436,0.71683,5.540,111.947
13.350,0.64641,0.71351,5.761,112.519
13.400,0.64921,0.71227,5.647,112.990
13.450,0.65080,0.71086,5.671,113.327
13.500,0.65334,0.70870,5.695,113.861
13.550,0.65521,0.70597,5.856,114.369
13.600,0.65716,0.70518,5.762,114.697
13.650,0.65975,0.70231,5.870,115.320
13.700,0.66201,0.70063,5.855,115.783
13.750,0.66420,0.69844,5.913,116.295
13.800,0.66599,0.69628,6.008,116.753
13.850,0.66758,0.69492,6.018,117.104
13.900,0.67046,0.69183,6.118,117.814
13.950,0.67148,0.68999,6.252,118.147
14.000,0.67422,0.68812,6.203,118.715
14.050,0.67672,0.68589,6.227,119.294
14.100,0.67813,0.68443,6.267,119.646
14.150,0.68113,0.68163,6.307,120.366
14.200,0.68169,0.68031,6.423,120.591
14.250,0.68369,0.67797,6.514,121.133
14.300,0.68646,0.67657,6.386,121.673
14.350,0.68821,0.67458,6.456,122.147
14.400,0.68969,0.67256,6.560,122.589
14.450,0.69087,0.67045,6.714,123.004
14.500,0.69269,0.66861,6.754,123.479
14.550,0.69513,0.66666,6.733,124.058
14.600,0.69710,0.66380,6.895,124.686
14.650,0.69976,0.66257,6.741,125.216
14.700,0.70012,0.65968,7.109,125.628
14.750,0.70316,0.65924,6.788,126.119
14.800,0.70491,0.65645,6.967,126.726
14.850,0.70622,0.65474,7.045,127.137
14.900,0.70864,0.65304,6.979,127.709
14.950,0.70994,0.65075,7.142,128.198
15.000,0.71214,0.64856,7.172,128.812
15.050,0.71423,0.64734,7.073,129.284
15.100,0.71517,0.64491,7.304,129.751
15.150,0.71721,0.64314,7.291,130.296
15.200,0.71716,0.64077,7.654,130.614
15.250,0.71960,0.64058,7.346,131.006
15.300,0.72153,0.63793,7.476,131.667
15.350,0.72276,0.63491,7.761,132.281
15.400,0.72356,0.63453,7.706,132.457
15.450,0.72675,0.63217,7.611,133.283
15.500,0.72860,0.63093,7.534,133.748
15.550,0.72949,0.62825,7.816,134.278
15.600,0.73248,0.62679,7.601,134.958
15.650,0.73329,0.62386,7.937,135.523
15.700,0.73449,0.62264,7.948,135.895
15.750,0.73558,0.62067,8.096,136.367
15.800,0.73733,0.61966,7.987,136.798
15.850,0.73846,0.61701,8.236,137.386
15.900,0.74117,0.61507,8.125,138.124
15.950,0.74190,0.61338,8.281,138.508
16.000,0.74311,0.61187,8.335,138.943
16.050,0.74469,0.61007,8.374,139.485
16.100,0.74626,0.60824,8.419,140.038
16.150,0.74785,0.60663,8.424,140.560
16.200,0.74956,0.60536,8.354,141.049
16.250,0.74979,0.60200,8.871,141.644
16.300,0.75236,0.60055,8.684,142.315
16.350,0.75236,0.59909,8.931,142.561
16.400,0.75529,0.59775,8.657,143.280
16.450,0.75660,0.59555,8.803,143.881
16.500,0.75633,0.59319,9.251,144.240
16.550,0.75748,0.59257,9.157,144.545
16.600,0.76079,0.59058,8.918,145.462
16.650,0.76199,0.58913,8.955,145.925
16.700,0.76247,0.58666,9.295,146.448
16.750,0.76472,0.58553,9.087,147.043
16.800,0.76492,0.58354,9.397,147.439
16.850,0.76626,0.58184,9.451,147.986
16.900,0.76746,0.57972,9.602,148.589
16.950,0.77009,0.57857,9.315,149.269
17.000,0.77040,0.57672,9.586,149.671
17.050,0.77213,0.57446,9.664,150.410
17.100,0.77240,0.57246,9.972,150.841
17.150,0.77392,0.57108,9.929,151.382
17.200,0.77534,0.57011,9.830,151.829
17.250,0.77715,0.56835,9.797,152.503
17.300,0.77796,0.56650,9.975,153.015
17.350,0.77925,0.56526,9.946,153.499
17.400,0.77963,0.56266,10.352,154.091
17.450,0.78153,0.56099,10.279,154.782
17.500,0.78313,0.55957,10.217,155.372
17.550,0.78412,0.55813,10.283,155.852
17.600,0.78498,0.55614,10.481,156.428
17.650,0.78515,0.55477,10.703,156.744
17.700,0.78726,0.55338,10.524,157.439
17.750,0.78930,0.55093,10.561,158.349
17.800,0.78904,0.55007,10.781,158.484
17.850,0.78938,0.54893,10.928,158.796
17.900,0.79232,0.54713,10.639,159.753
17.950,0.79209,0.54559,10.990,160.048
18.000,0.79336,0.54375,11.070,160.701
18.050,0.79459,0.54151,11.237,161.439
18.100,0.79716,0.53918,11.122,162.471
18.150,0.79692,0.53834,11.343,162.614
18.200,0.79744,0.53637,11.619,163.167
18.250,0.79929,0.53528,11.417,163.790
18.300,0.79976,0.53381,11.603,164.225
18.350,0.80041,0.53171,11.879,164.844
18.400,0.80204,0.53078,11.686,165.394
18.450,0.80417,0.52895,11.556,166.264
18.500,0.80332,0.52666,12.231,166.637
18.550,0.80508,0.52569,12.009,167.235
18.600,0.80645,0.52359,12.114,168.029
18.650,0.80762,0.52277,11.998,168.472
18.700,0.80930,0.52093,11.969,169.279
18.750,0.80899,0.51885,12.484,169.730
18.800,0.80929,0.51875,12.432,169.818
18.850,0.81022,0.51700,12.569,170.455
18.900,0.81081,0.51491,12.871,171.109
18.950,0.81222,0.51401,12.704,171.643
19.000,0.81469,0.51119,12.679,172.900
19.050,0.81468,0.51024,12.888,173.145
19.100,0.81508,0.50923,13.002,173.495
19.150,0.81591,0.50754,13.154,174.121
19.200,0.81720,0.50568,13.225,174.898
19.250,0.81823,0.50411,13.298,175.544
19.300,0.81952,0.50290,13.219,176.159
19.350,0.82041,0.50178,13.227,176.662
19.400,0.81987,0.50010,13.752,176.999
19.450,0.82285,0.49833,13.332,178.156
19.500,0.82322,0.49706,13.517,178.594
19.550,0.82464,0.49544,13.487,179.371
19.600,0.82403,0.49334,14.140,179.821
19.650,0.82412,0.49312,14.165,179.906
19.700,0.82698,0.49066,13.919,181.267
19.750,0.82724,0.48951,14.113,181.660
19.800,0.82875,0.48785,14.062,182.493
19.850,0.82937,0.48726,14.016,182.812
19.900,0.82821,0.48579,14.704,182.971
19.950,0.83080,0.48372,14.430,184.196
20.000,0.83169,0.48204,14.562,184.910
20.050,0.83198,0.48061,14.820,185.408
20.100,0.83199,0.47890,15.229,185.929
20.150,0.83326,0.47744,15.196,186.680
20.200,0.83483,0.47644,14.957,187.370
20.250,0.83425,0.47381,15.780,188.043
20.300,0.83397,0.47417,15.780,187.864
20.350,0.83596,0.47287,15.481,188.757
20.400,0.83829,0.47140,15.110,189.797
20.450,0.83802,0.46889,15.822,190.532
20.500,0.83908,0.46823,15.647,191.011
20.550,0.83956,0.46641,15.950,191.716
20.600,0.83839,0.46540,16.582,191.749
20.650,0.84095,0.46414,16.073,192.811
20.700,0.84168,0.46171,16.455,193.800
20.750,0.84322,0.46061,16.223,194.563
20.800,0.84209,0.45979,16.813,194.543
20.850,0.84498,0.45757,16.418,196.043
20.900,0.84560,0.45588,16.648,196.783
20.950,0.84515,0.45432,17.213,197.202
21.000,0.84479,0.45470,17.235,196.976
21.050,0.84519,0.45367,17.373,197.435
21.100,0.84634,0.45086,17.725,198.714
21.150,0.84893,0.44916,17.270,200.013
21.200,0.84823,0.44853,17.693,200.047
21.250,0.84838,0.44777,17.845,200.358
21.300,0.85020,0.44601,17.671,201.482
21.350,0.85181,0.44416,17.592,202.594
21.400,0.85177,0.44230,18.122,203.263
21.450,0.85099,0.44140,18.657,203.374
21.500,0.85168,0.44028,18.716,203.978
21.550,0.85290,0.43926,18.550,204.701
21.600,0.85550,0.43668,18.301,206.400
21.650,0.85495,0.43622,18.637,206.420
21.700,0.85437,0.43545,19.074,206.547
21.750,0.85575,0.43466,18.777,207.242
21.800,0.85691,0.43228,19.014,208.489
21.850,0.85757,0.43010,19.385,209.529
21.900,0.85593,0.42979,20.116,209.166
21.950,0.85809,0.42874,19.576,210.212
22.000,0.85872,0.42735,19.735,210.946
22.050,0.86010,0.42546,19.745,212.105
22.100,0.85943,0.42272,20.833,213.011
22.150,0.85982,0.42345,20.459,212.832
22.200,0.86117,0.42288,20.081,213.467
22.250,0.86184,0.42041,20.549,214.676
22.300,0.86343,0.41746,20.790,216.385
22.350,0.86312,0.41746,20.919,216.290
22.400,0.86359,0.41618,21.116,216.968
22.450,0.86368,0.41582,21.189,217.152
22.500,0.86414,0.41272,21.964,218.607
22.550,0.86489,0.41146,22.039,219.382
22.600,0.86544,0.41181,21.693,219.403
22.650,0.86657,0.41079,21.522,220.202
22.700,0.86721,0.40827,22.045,221.506
22.750,0.86626,0.40577,23.268,222.298
22.800,0.86798,0.40487,22.798,223.255
22.850,0.86810,0.40557,22.517,222.982
22.900,0.86951,0.40391,22.428,224.181
22.950,0.86983,0.40247,22.750,224.940
23.000,0.86909,0.39956,24.049,226.013
23.050,0.87104,0.39896,23.357,226.942
23.100,0.87056,0.39935,23.444,226.600
23.150,0.87127,0.39789,23.610,227.511
23.200,0.87244,0.39520,23.966,229.162
23.250,0.87178,0.39419,24.623,229.412
23.300,0.87169,0.39314,25.029,229.876
23.350,0.87337,0.39210,24.587,230.946
23.400,0.87467,0.39023,24.608,232.298
23.450,0.87284,0.38913,25.876,232.187
23.500,0.87414,0.38790,25.682,233.242
23.550,0.87482,0.38776,25.397,233.550
23.600,0.87506,0.38632,25.790,234.339
23.650,0.87532,0.38487,26.181,235.151
23.700,0.87527,0.38154,27.408,236.789
23.750,0.87572,0.38203,27.004,236.711
23.800,0.87761,0.38131,26.313,237.761
23.850,0.87841,0.38025,26.296,238.591
23.900,0.87673,0.37771,28.090,239.268
23.950,0.87800,0.37695,27.718,240.133
24.000,0.87892,0.37665,27.354,240.633
24.050,0.88057,0.37595,26.754,241.609
24.100,0.87950,0.37424,27.956,242.108
24.150,0.87823,0.37227,29.374,242.662
24.200,0.87966,0.37114,29.051,243.809
24.250,0.88159,0.37055,28.245,244.867
24.300,0.88145,0.36940,28.764,245.431
24.350,0.88011,0.36712,30.381,246.138
24.400,0.87974,0.36645,30.844,246.355
24.450,0.88205,0.36626,29.663,247.379
24.500,0.88202,0.36516,30.116,247.964
24.550,0.88349,0.36381,29.838,249.297
24.600,0.88171,0.36127,31.854,250.001
24.650,0.88098,0.36042,32.614,250.169
24.700,0.88328,0.36050,31.286,251.073
24.750,0.88424,0.35885,31.424,252.403
24.800,0.88385,0.35733,32.276,253.108
24.850,0.88227,0.35587,33.793,253.278
24.900,0.88225,0.35663,33.481,252.836
24.950,0.88469,0.35568,32.478,254.412
25.000,0.88450,0.35519,32.792,254.617
25.050,0.88404,0.35234,34.280,256.083
25.100,0.88260,0.35164,35.427,255.861
25.150,0.88562,0.35013,34.304,258.067
25.200,0.88750,0.34989,33.286,259.026
25.250,0.88532,0.34794,35.445,259.247
25.300,0.88548,0.34711,35.720,259.816
25.350,0.88518,0.34669,36.088,259.933
25.400,0.88817,0.34629,34.451,261.502
25.450,0.88908,0.34529,34.332,262.516
25.500,0.88817,0.34340,35.742,263.285
25.550,0.88481,0.34196,38.470,262.632
25.600,0.88884,0.34245,35.753,264.174
25.650,0.89017,0.34038,35.859,266.085
25.700,0.88946,0.34070,36.159,265.562
25.750,0.88798,0.33933,37.725,265.735
25.800,0.88722,0.33986,37.951,265.051
25.850,0.88916,0.33754,37.818,267.424
25.900,0.89206,0.33588,36.722,269.861
25.950,0.88991,0.33602,38.053,268.753
26.000,0.88857,0.33475,39.522,268.930
26.050,0.88992,0.33439,38.821,269.813
26.100,0.89262,0.33297,37.725,272.036
26.150,0.89250,0.33102,38.749,273.277
26.200,0.89091,0.33192,39.365,271.911
26.250,0.89052,0.33094,40.097,272.363
26.300,0.89296,0.32830,39.769,275.334
26.350,0.89415,0.32796,39.130,276.152
26.400,0.89368,0.32778,39.535,276.038
26.450,0.89137,0.32790,41.041,274.815
26.500,0.89237,0.32692,40.858,275.969
26.550,0.89520,0.32481,39.973,278.846
26.600,0.89633,0.32352,39.822,280.318
26.650,0.89598,0.32274,40.469,280.687
26.700,0.89349,0.32296,42.095,279.264
26.750,0.89552,0.32198,41.183,280.990
26.800,0.89844,0.31922,40.506,284.467
26.850,0.89690,0.31794,42.289,284.595
26.900,0.89514,0.31889,43.057,282.992
26.950,0.89668,0.31892,41.932,283.776
27.000,0.89766,0.31673,42.376,285.880
27.050,0.89979,0.31415,42.165,288.923
27.100,0.89822,0.31533,42.702,287.211
27.150,0.89736,0.31621,42.867,286.103
27.200,0.89992,0.31298,42.688,289.873
27.250,0.90064,0.31090,43.266,291.837
27.300,0.90062,0.31057,43.460,292.081
27.350,0.89968,0.31082,44.040,291.375
27.400,0.89912,0.31307,43.244,289.373
27.450,0.90029,0.30881,44.682,293.253
27.500,0.90172,0.30681,44.690,295.603
27.550,0.90228,0.30623,44.574,296.376
27.600,0.90208,0.30588,44.931,296.533
27.650,0.90161,0.30688,44.736,295.488
27.700,0.90272,0.30397,45.507,298.418
27.750,0.90459,0.30169,45.296,301.324
27.800,0.90416,0.30256,45.149,300.375
27.850,0.90352,0.30296,45.430,299.683
27.900,0.90550,0.30161,44.595,301.911
27.950,0.90557,0.29884,46.143,304.250
28.000,0.90607,0.29808,46.160,305.176
28.050,0.90595,0.29811,46.256,305.082
28.100,0.90632,0.29872,45.582,304.791
28.150,0.90702,0.29614,46.506,307.377
28.200,0.90815,0.29375,46.967,310.108
28.250,0.90701,0.29323,48.270,309.866
28.300,0.90801,0.29400,46.938,309.802
28.350,0.90827,0.29378,46.844,310.151
28.400,0.90946,0.29129,47.304,313.060
28.450,0.90843,0.28957,49.277,313.944
28.500,0.90939,0.28921,48.643,314.864
28.550,0.90871,0.29025,48.603,313.516
28.600,0.91080,0.28852,47.806,316.356
28.650,0.90950,0.28543,50.942,318.344
28.700,0.91009,0.28489,50.745,319.215
28.750,0.91114,0.28490,49.772,319.884
28.800,0.91095,0.28414,50.440,320.465
28.850,0.91201,0.28257,50.455,322.608
28.900,0.91218,0.28098,51.335,324.228
28.950,0.91186,0.28151,51.291,323.515
29.000,0.91269,0.28112,50.761,324.426
29.050,0.91251,0.27956,51.964,325.796
29.100,0.91383,0.27718,52.275,328.976
29.150,0.91427,0.27615,52.540,330.285
29.200,0.91396,0.27634,52.711,329.893
29.250,0.91443,0.27675,51.971,329.806
29.300,0.91413,0.27395,54.176,332.373
29.350,0.91414,0.27125,56.068,335.093
29.400,0.91409,0.27200,55.589,334.294
29.450,0.91574,0.27206,53.882,335.396
29.500,0.91508,0.27179,54.727,335.205
29.550,0.91492,0.26861,57.161,338.341
29.600,0.91529,0.26716,57.842,340.113
29.650,0.91574,0.26737,57.222,340.223
29.700,0.91554,0.26732,57.462,340.125
29.750,0.91722,0.26672,56.140,341.979
29.800,0.91779,0.26348,57.913,345.863
29.850,0.91803,0.26347,57.664,346.054
29.900,0.91706,0.26346,58.716,345.345
29.950,0.91768,0.26394,57.685,345.284
30.000,0.91821,0.26153,58.928,348.299